Folder: XRD/sample

Note: sample/CsV3Sb5_0T_20241208.json
{
  "DISP_FMT_X": "%.2f",
  "DISP_FMT_Y": "%.0f",
  "DISP_FULLSCALE": "87780.4785090000",
  "DISP_LINE_COLOR": "255.0000000000",
  "DISP_LINE_STYLE": "0.0000000000",
  "DISP_LINE_WIDTH": "0.2500000000",
  "DISP_NOTE": "f[^-3",
  "DISP_OFFSET_Y": "0.0000000000",
  "DISP_PEAKSEARCH_UNIT_Y": "cps",
  "DISP_RANGE_BOTTOM": "0.0000000000",
  "DISP_RANGE_LEFT": "5.0000000000",
  "DISP_RANGE_LOGCUTOFF": "0.0100000000",
  "DISP_RANGE_RIGHT": "60.0000000000",
  "DISP_RANGE_TOP": "87780.4785090000",
  "DISP_SCALE_MODE_Y": "0.0000000000",
  "DISP_TAB_NAME": "2/",
  "DISP_TITLE_Y": "x",
  "DISP_UNIT_Y": "cps",
  "DISP_WINDOW_NAME": "MSG_MACROENGINE",
  "FILE_COMMENT": " ",
  "FILE_MD5": "",
  "FILE_MEMO": " ",
  "FILE_OPERATOR": "administrator",
  "FILE_PART_ID": "MEAS_KHP2_00068",
  "FILE_SAMPLE": " ",
  "FILE_TYPE": "RAS_RAW",
  "FILE_USERGROUP": "VXe}l[W",
  "FILE_VERSION": "1.0000000000",
  "HW_ATTACHMENT_ID": "ATT0022",
  "HW_ATTACHMENT_NAME": "RxRy|RxRy",
  "HW_COUNTER_ID-0": "CUT0041",
  "HW_COUNTER_ID-1": "CUT0020",
  "HW_COUNTER_ID-2": "",
  "HW_COUNTER_ID-3": "CSL0021",
  "HW_COUNTER_ID-4": "CMC0021",
  "HW_COUNTER_NAME-0": "D/teX Ultra 250|D/teX Ultra 250",
  "HW_COUNTER_NAME-1": "None|None",
  "HW_COUNTER_NAME-2": "",
  "HW_COUNTER_NAME-3": "BBM|BBM",
  "HW_COUNTER_NAME-4": "o탂mN[^|Detector monochromator",
  "HW_COUNTER_SELECT_NAME": "D/teX Ultra 250|D/teX Ultra 250",
  "HW_GONIOMETER_ID": "GON0023",
  "HW_GONIOMETER_NAME": "SmartLab|SmartLab",
  "HW_GONIOMETER_RADIUS-0": "90.0",
  "HW_GONIOMETER_RADIUS-1": "114.0",
  "HW_GONIOMETER_RADIUS-2": "190.0",
  "HW_GONIOMETER_RADIUS-3": "300.0",
  "HW_GONIOMETER_RADIUS-4": "187.0",
  "HW_GONIOMETER_RADIUS-5": "300.0",
  "HW_GONIOMETER_RADIUS-6": "113.0",
  "HW_GONIOMETER_RADIUS-7": "331.0",
  "HW_I_OPT_ID-0": "CBO0021",
  "HW_I_OPT_ID-1": "ICR0023",
  "HW_I_OPT_ID-2": "ISL0021",
  "HW_I_OPT_ID-3": "ISO0021",
  "HW_I_OPT_ID-4": "IAD0021",
  "HW_I_OPT_ID-5": "IPR0001",
  "HW_I_OPT_NAME-0": "CBOjbg|CBO unit",
  "HW_I_OPT_NAME-1": "Wˌwjbg|Standard incident optical unit",
  "HW_I_OPT_NAME-2": "W˃Xbg{bNX|Standard incident slit box",
  "HW_I_OPT_NAME-3": "˕sXbg|Incident parallel slit",
  "HW_I_OPT_NAME-4": "萧Xbg|Length limiting slit",
  "HW_I_OPT_NAME-5": "None|None",
  "HW_R_ATTENUATER_AUTOMODE": "0",
  "HW_R_OPT_ID-0": "RSS0021",
  "HW_R_OPT_ID-1": "RCR0023",
  "HW_R_OPT_ID-2": "RSO0021",
  "HW_R_OPT_ID-3": "RRS0021",
  "HW_R_OPT_ID-4": "ATN0021",
  "HW_R_OPT_ID-5": "RFL0021",
  "HW_R_OPT_ID-6": "RAD0021",
  "HW_R_OPT_NAME-0": "WXbg{bNX1|Standard receiving slit box # 1",
  "HW_R_OPT_NAME-1": "Wwjbg1|Standard receiving unit # 1",
  "HW_R_OPT_NAME-2": "Wwjbg2|Standard receiving optical unit # 2",
  "HW_R_OPT_NAME-3": "WXbg{bNX2|Standard receiving slit box # 2",
  "HW_R_OPT_NAME-4": "WAbel[^|Standard Attenuator",
  "HW_R_OPT_NAME-5": "Cu K|Cu K-beta",
  "HW_R_OPT_NAME-6": "pXbg|Alignment receiving slit",
  "HW_SAMPLE_HOLDER_ID": "SMP0026",
  "HW_SAMPLE_HOLDER_NAME": "Z-ӃXe[W|Z-Phi Stage",
  "HW_XG_CURRENT_MAX": 

File: CsV3Sb5_0T_38-40_20241208.dat
# Scan Date   : 12/08/24 16:57:25 - 12/08/24 17:08:53
# File Sample :
# File Memo   :
# User Comment :
# Optical     : @集中法
# Counter     : D/teX Ultra 250|D/teX Ultra 250
# Condition 2θ/θ                     : 0.0000000000 deg (offset -),
# Condition 2θ                       : 0.0000000000 deg (offset -0.161),
# Condition ω                        : 0.0000000000 deg (offset 0.0255),
# Condition φ                        : 0.0000000000 deg (offset 0.0000000000),
# Condition Z                        : 0.30216 mm (offset -),
# Condition Rx                       : 0.1089 deg (offset -),
# Condition Ry                       : -2.3048 deg (offset -),
# Condition 2θ/ω                     : 0.0000000000 deg (offset -),
# Condition θs                       : 0.0000000000 deg (offset 0.0255),
# Condition θd                       : 0.0000000000 deg (offset -0.1865),
# Condition Ts                       : 0.12488 mm (offset -),
# Condition CBO選択スリット                : BB  (offset -),
# Condition M                        : 0.0000000000 pulse (offset -),
# Condition 入射平行スリット                 : Soller_slit_5.0deg  (offset -),
# Condition 入射スリット                   : 1/2deg  (offset -),
# Condition Zs                       : -0.19094 mm (offset -),
# Condition 入射光学素子                   : 0.0000000000  (offset -),
# Condition 長手制限スリット                 : 10.0mm  (offset -),
# Condition センタースリット                 : None  (offset -),
# Condition フィルター                    : Cu_K-beta  (offset -),
# Condition 受光スリット1                  : 20.000mm  (offset -),
# Condition 受光スリット2                  : 20.000mm  (offset -),
# Condition 受光光学素子                   : No_unit  (offset -),
# Condition 受光平行スリット                 : Soller_slit_5.0deg  (offset -),
# Condition 調整用受光スリット                : None  (offset -),
# Condition Zd                       : 0.27437 mm (offset -),
# Condition アッテネータ                   : Open  (offset -),
# Condition 検出器モノクロメータ               : None  (offset -),
# Condition モノクロメータスリット              : None  (offset -),
# Condition プライマリビーム                 : None  (offset -),
# Condition PHA                      : 35 div (offset -),
# Data X axis : 2θ/ω
# Scan mode   : CONTINUOUS
# Scan start  : 38 deg
# Scan stop   : 40 deg
# Scan step   : 0.004 deg
# Scan speed  : 0.500968 deg/min
# Scan time per step : 0.479
# Scan Y unit : counts
# Scan Date and Time: 12/08/24 16:57:25 - 17:08:53
38.0000 1137.615 545.0000 1.0000
38.0080 1198.148 574.0000 1.0000
38.0160 1196.061 573.0000 1.0000
38.0240 1200.236 575.0000 1.0000
38.0320 1258.682 603.0000 1.0000
38.0400 1225.284 587.0000 1.0000
38.0480 1200.236 575.0000 1.0000
38.0560 1198.148 574.0000 1.0000
38.0640 1256.595 602.0000 1.0000
38.0720 1239.896 594.0000 1.0000
38.0800 1231.546 590.0000 1.0000
38.0880 1237.808 593.0000 1.0000
38.0960 1277.468 612.0000 1.0000
38.1040 1191.886 571.0000 1.0000
38.1120 1310.866 628.0000 1.0000
38.1200 1171.013 561.0000 1.0000
38.1280 1246.158 597.0000 1.0000
38.1360 1258.682 603.0000 1.0000
38.1440 1237.808 593.0000 1.0000
38.1520 1181.450 566.0000 1.0000
38.1600 1289.993 618.0000 1.0000
38.1680 1281.643 614.0000 1.0000
38.1760 1256.595 602.0000 1.0000
38.1840 1331.740 638.0000 1.0000
38.1920 1292.080 619.0000 1.0000
38.2000 1287.905 617.0000 1.0000
38.2080 1292.080 619.0000 1.0000
38.2160 1308.779 627.0000 1.0000
38.2240 1323.390 634.0000 1.0000
38.2320 1350.526 647.0000 1.0000
38.2400 1225.284 587.0000 1.0000
38.2480 1331.740 638.0000 1.0000
38.2560 1285.818 616.0000 1.0000
38.2640 1306.692 626.0000 1.0000
38.2720 1377.662 660.0000 1.0000
38.2800 1400.623 671.0000 1.0000
38.2880 1440.283 690.0000 1.0000
38.2960 1350.526 647.0000 1.0000
38.3040 1492.467 715.0000 1.0000
38.3120 1461.157 700.0000 1.0000
38.3200 1488.292 713.0000 1.0000
38.3280 1519.603 728.0000 1.0000
38.3360 1527.952 732.0000 1.0000
38.3440 1571.787 753.0000 1.0000
38.3520 1621.884 777.0000 1.0000
38.3600 1713.728 821.0000 1.0000
38.3680 1816.009 870.0000 1.0000
38.3760 1957.950 938.0000 1.0000
38.3840 2141.638 1026 1.0000
38.3920 2143.726 1027 1.0000
38.4000 2375.423 1138 1.0000
38.4080 2590.422 1241 1.0000
38.4160 2644.694 1267 1.0000
38.4240 2955.711 1416 1.0000
38.4320 3168.623 1518 1.0000
38.4400 3295.952 1579 1.0000
38.4480 3588.183 1719 1.0000
38.4560 3636.193 1742 1.0000
38.4640 3805.269 1823 1.0000
38.4720 3840.755 1840 1.0000
38.4800 4112.112 1970 1.0000
38.4880 4421.043 2118 1.0000
38.4960 4842.691 2320 1.0000
38.5040 5402.105 2588 1.0000
38.5120 6514.671 3121 1.0000
38.5200 7838.062 3755 1.0000
38.5280 10211.398 4892 1.0000
38.5360 14008.318 6711 1.0000
38.5440 19120.279 9160 1.0000
38.5520 24766.605 11865 1.0000
38.5600 28951.776 13870 1.0000
38.5680 33846.650 16215 1.0000
38.5760 39136.038 18749 1.0000
38.5840 47305.991 22663 1.0000
38.5920 59711.211 28606 1.0000
38.6000 73788.412 35350 1.0000
38.6080 83989.373 40237 1.0000
38.6160 80480.509 38556 1.0000
38.6240 64303.418 30806 1.0000
38.6320 45329.255 21716 1.0000
38.6400 32706.948 15669 1.0000
38.6480 25927.181 12421 1.0000
38.6560 23332.585 11178 1.0000
38.6640 22698.025 10874 1.0000
38.6720 22979.820 11009 1.0000
38.6800 25547.281 12239 1.0000
38.6880 29398.472 14084 1.0000
38.6960 35558.291 17035 1.0000
38.7040 41690.974 19973 1.0000
38.7120 42505.047 20363 1.0000
38.7200 37219.835 17831 1.0000
38.7280 27509.405 13179 1.0000
38.7360 18650.621 8935 1.0000
38.7440 12580.559 6027 1.0000
38.7520 8783.639 4208 1.0000
38.7600 6742.194 3230 1.0000
38.7680 5374.969 2575 1.0000
38.7760 4398.082 2107 1.0000
38.7840 4001.482 1917 1.0000
38.7920 3419.107 1638 1.0000
38.8000 3166.535 1517 1.0000
38.8080 2838.819 1360 1.0000
38.8160 2534.063 1214 1.0000
38.8240 2500.665 1198 1.0000
38.8320 2412.996 1156 1.0000
38.8400 2310.715 1107 1.0000
38.8480 2250.181 1078 1.0000
38.8560 2187.560 1048 1.0000
38.8640 2091.541 1002 1.0000
38.8720 1914.115 917.0000 1.0000
38.8800 1884.892 903.0000 1.0000
38.8880 1780.524 853.0000 1.0000
38.8960 1699.116 814.0000 1.0000
38.9040 1669.893 800.0000 1.0000
38.9120 1657.369 794.0000 1.0000
38.9200 1527.952 732.0000 1.0000
38.9280 1536.302 736.0000 1.0000
38.9360 1465.331 702.0000 1.0000
38.9440 1444.458 692.0000 1.0000
38.9520 1408.972 675.0000 1.0000
38.9600 1431.934 686.0000 1.0000
38.9680 1375.575 659.0000 1.0000
38.9760 1411.060 676.0000 1.0000
38.9840 1365.138 654.0000 1.0000
38.9920 1371.400 657.0000 1.0000
39.0000 1335.915 640.0000 1.0000
39.0080 1338.002 641.0000 1.0000
39.0160 1379.749 661.0000 1.0000
39.0240 1304.604 625.0000 1.0000
39.0320 1312.954 629.0000 1.0000
39.0400 1315.041 630.0000 1.0000
39.0480 1246.158 597.0000 1.0000
39.0560 1292.080 619.0000 1.0000
39.0640 1216.935 583.0000 1.0000
39.0720 1252.420 600.0000 1.0000
39.0800 1271.206 609.0000 1.0000
39.0880 1250.333 599.0000 1.0000
39.0960 1275.381 611.0000 1.0000
39.1040 1248.245 598.0000 1.0000
39.1120 1269.119 608.0000 1.0000
39.1200 1216.935 583.0000 1.0000
39.1280 1271.206 609.0000 1.0000
39.1360 1269.119 608.0000 1.0000
39.1440 1214.847 582.0000 1.0000
39.1520 1264.944 606.0000 1.0000
39.1600 1196.061 573.0000 1.0000
39.1680 1216.935 583.0000 1.0000
39.1760 1292.080 619.0000 1.0000
39.1840 1189.799 570.0000 1.0000
39.1920 1164.751 558.0000 1.0000
39.2000 1162.663 557.0000 1.0000
39.2080 1206.498 578.0000 1.0000
39.2160 1208.585 579.0000 1.0000
39.2240 1219.022 584.0000 1.0000
39.2320 1202.323 576.0000 1.0000
39.2400 1219.022 584.0000 1.0000
39.2480 1248.245 598.0000 1.0000
39.2560 1125.091 539.0000 1.0000
39.2640 1171.013 561.0000 1.0000
39.2720 1133.440 543.0000 1.0000
39.2800 1191.886 571.0000 1.0000
39.2880 1239.896 594.0000 1.0000
39.2960 1200.236 575.0000 1.0000
39.3040 1189.799 570.0000 1.0000
39.3120 1143.877 548.0000 1.0000
39.3200 1164.751 558.0000 1.0000
39.3280 1131.353 542.0000 1.0000
39.3360 1168.925 560.0000 1.0000
39.3440 1150.139 551.0000 1.0000
39.3520 1208.585 579.0000 1.0000
39.3600 1171.013 561.0000 1.0000
39.3680 1125.091 539.0000 1.0000
39.3760 1123.003 538.0000 1.0000
39.3840 1127.178 540.0000 1.0000
39.3920 1095.868 525.0000 1.0000
39.4000 1077.081 516.0000 1.0000
39.4080 1129.265 541.0000 1.0000
39.4160 1123.003 538.0000 1.0000
39.4240 1110.479 532.0000 1.0000
39.4320 1066.644 511.0000 1.0000
39.4400 1139.702 546.0000 1.0000
39.4480 1145.964 549.0000 1.0000
39.4560 1100.042 527.0000 1.0000
39.4640 1127.178 540.0000 1.0000
39.4720 1089.605 522.0000 1.0000
39.4800 1175.187 563.0000 1.0000
39.4880 1102.130 528.0000 1.0000
39.4960 1123.003 538.0000 1.0000
39.5040 1129.265 541.0000 1.0000
39.5120 1145.964 549.0000 1.0000
39.5200 1104.217 529.0000 1.0000
39.5280 1072.906 514.0000 1.0000
39.5360 1129.265 541.0000 1.0000
39.5440 1129.265 541.0000 1.0000
39.5520 1093.780 524.0000 1.0000
39.5600 1120.916 537.0000 1.0000
39.5680 1029.072 493.0000 1.0000
39.5760 1064.557 510.0000 1.0000
39.5840 1116.741 535.0000 1.0000
39.5920 1070.819 513.0000 1.0000
39.6000 1068.732 512.0000 1.0000
39.6080 1106.304 530.0000 1.0000
39.6160 1039.509 498.0000 1.0000
39.6240 1148.052 550.0000 1.0000
39.6320 1095.868 525.0000 1.0000
39.6400 1037.421 497.0000 1.0000
39.6480 1108.392 531.0000 1.0000
39.6560 1104.217 529.0000 1.0000
39.6640 1131.353 542.0000 1.0000
39.6720 1093.780 524.0000 1.0000
39.6800 1127.178 540.0000 1.0000
39.6880 1083.343 519.0000 1.0000
39.6960 1118.829 536.0000 1.0000
39.7040 1066.644 511.0000 1.0000
39.7120 1139.702 546.0000 1.0000
39.7200 1068.732 512.0000 1.0000
39.7280 1091.693 523.0000 1.0000
39.7360 1089.605 522.0000 1.0000
39.7440 1064.557 510.0000 1.0000
39.7520 1039.509 498.0000 1.0000
39.7600 1085.431 520.0000 1.0000
39.7680 1077.081 516.0000 1.0000
39.7760 1066.644 511.0000 1.0000
39.7840 1043.683 500.0000 1.0000
39.7920 1125.091 539.0000 1.0000
39.8000 1049.945 503.0000 1.0000
39.8080 1060.382 508.0000 1.0000
39.8160 1077.081 516.0000 1.0000
39.8240 1029.072 493.0000 1.0000
39.8320 1039.509 498.0000 1.0000
39.8400 1104.217 529.0000 1.0000
39.8480 1018.635 488.0000 1.0000
39.8560 1085.431 520.0000 1.0000
39.8640 1085.431 520.0000 1.0000
39.8720 1031.159 494.0000 1.0000
39.8800 1093.780 524.0000 1.0000
39.8880 1035.334 496.0000 1.0000
39.8960 1041.596 499.0000 1.0000
39.9040 1054.120 505.0000 1.0000
39.9120 1026.984 492.0000 1.0000
39.9200 1014.460 486.0000 1.0000
39.9280 1056.208 506.0000 1.0000
39.9360 1020.722 489.0000 1.0000
39.9440 1054.120 505.0000 1.0000
39.9520 1077.081 516.0000 1.0000
39.9600 1108.392 531.0000 1.0000
39.9680 1029.072 493.0000 1.0000
39.9760 995.674 477.0000 1.0000
39.9840 1062.470 509.0000 1.0000
39.9920 976.888 468.0000 1.0000
40.0000 1049.945 503.0000 1.0000

File: CsV3Sb5_0T_20241208_2θ_ω.asc
*TYPE		=  Raw
*CLASS		=  ASCII CLASS
*SAMPLE		=
*COMMENT	=
*FNAME		=  CsV3Sb5_0T_20241208_2θ_ω.asc
*DATE		=  08-Dec-24 16:45

*GROUP_COUNT	=  1
*GONIO		=  SmartLab, 0.000000
*ATTACHMENT	=  Z-φステージ
*ASC		=  0, 0, 0.000000, 0.000000
*I_MONOCHRO	=  Soller_slit_5.0deg, 0.000000
*FILTER		=  Cu_K-beta
*C_MONOCHRO	=  None, 0.000000
*SLIT_NAME	=  0, 入射スリット
*SLIT_NAME	=  1, 受光スリット1
*SLIT_NAME	=  2, 受光スリット2
*COUNTER	=  D/teX Ultra 250, 0
*POS_FORMAT	=  0
*SCAN_AXIS	=  2Theta/Omega
*MEAS_MODE	=  Continuous Scanning
*TARGET		=  29
*XRAY_CHAR	=  K-ALPHA
*WAVE_LENGTH1	=  1.54059
*WAVE_LENGTH2	=  1.54441
*THICKNESS	=  0, 0.000000
*MU		=  0, 0.000000
*SCAN_MODE	=  2Theta/Omega
*SPEED_DIM	=  sec./step
*XUNIT		=  deg.
*YUNIT		=  counts
*SCALE_MODE	=  1
*REP_COUNT	=  0
*SE_COUNT	=  0
*STD_MATERIAL	=  Unknown, Unknown, 0.000000, 0.000000, 0.000000, 0.000000, 0.000000, 0.000000
*LATT_CONS	=  0, Unknown, Unknown, 0.000000, 0.000000, 0.000000, 0.000000, 0.000000, 0.000000
*SEC_COUNT	=  1
*TSPEC_SIZE	=  0
*EXTRA_SIZE	=  0
*MEMO		=

*BEGIN
*GROUP		=  0
*START		=  5
*STOP		=  60
*STEP		=  0.02
*OFFSET		=  0.000000
*SPEED		=  0.235364
*SLIT_SPEC	=  0, 1/2deg, 1, 0.000000
*SLIT_SPEC	=  1, 20.000mm, 20, 0.000000
*SLIT_SPEC	=  2, 20.000mm, 20, 0.000000
*KV		=  40
*MA		=  30
*LOW		=  0.000000
*HIGH		=  0.000000
*CTEMPER	=  0, 0.000000
*CTEMPER	=  1, 0.000000
*CTEMPER	=  2, 0.000000
*PAREX		=  0, 0.000000
*PAREX		=  1, 0.000000
*PAREX		=  2, 0.000000
*PAREX		=  3, 0.000000
*PAREX		=  4, 0.000000
*PAREX		=  5, 0.000000
*PAREX		=  6, 0.000000
*PAREX		=  7, 0.000000
*PAREX		=  8, 0.000000
*PAREX		=  9, 0.000000
*PAREX		=  10, 0.000000
*PAREX		=  11, 0.000000
*PAREX		=  12, 0.000000
*PAREX		=  13, 0.000000
*PAREX		=  14, 0.000000
*PAREX		=  15, 0.000000
*FULL_SCALE	=  87780.5
*INDEX		=  0, 0, 0
*COUNT		=  2751
3122, 3111, 3107, 3161
3083, 3086, 3025, 3080
3165, 3032, 3095, 3135
3066, 3090, 3086, 3049
2852, 2985, 3004, 2976
3014, 3034, 2988, 2911
2834, 3037, 2989, 2934
2936, 2917, 2882, 2928
2898, 2983, 2882, 2855
2856, 2866, 2810, 2677
2883, 2871, 2710, 2706
2721, 2856, 2684, 2713
2791, 2682, 2747, 2730
2609, 2716, 2696, 2650
2661, 2653, 2624, 2617
2615, 2619, 2551, 2559
2529, 2512, 2471, 2528
2438, 2522, 2548, 2462
2575, 2505, 2501, 2469
2657, 2528, 2420, 2532
2324, 2302, 2285, 2327
2307, 2313, 2321, 2299
2217, 2231, 2252, 2195
2158, 2257, 2172, 2118
2134, 2115, 2150, 2121
2096, 2095, 2014, 2027
2046, 2002, 2059, 1929
2020, 1961, 1929, 1974
1983, 1907, 1931, 1964
1888, 1977, 1894, 1930
1888, 1818, 1776, 1850
1876, 1793, 1785, 1863
1692, 1723, 1784, 1790
1724, 1684, 1715, 1685
1653, 1722, 1672, 1730
1681, 1612, 1568, 1640
1543, 1616, 1640, 1599
1557, 1541, 1608, 1513
1461, 1501, 1526, 1504
1564, 1380, 1436, 1491
1447, 1445, 1370, 1426
1371, 1364, 1366, 1388
1347, 1358, 1302, 1340
1218, 1346, 1282, 1205
1240, 1246, 1185, 1318
1253, 1261, 1184, 1247
1266, 1224, 1258, 1190
1237, 1232, 1180, 1185
1144, 1117, 1225, 1129
1098, 1085, 1142, 1170
1122, 1061, 1084, 1053
1060, 1081, 1054, 1071
1033, 971, 1047, 1061
1052, 997, 1019, 1043
1054, 969, 994, 954
1019, 992, 998, 1011
1031, 942, 984, 959
1001, 955, 954, 888
978, 978, 1003, 916
903, 899, 927, 948
890, 882, 860, 913
917, 819, 917, 912
882, 839, 816, 875
856, 862, 845, 839
820, 842, 828, 807
772, 772, 802, 807
849, 782, 807, 812
774, 758, 766, 843
766, 817, 721, 725
757, 828, 769, 727
729, 745, 740, 714
743, 705, 663, 733
735, 685, 691, 665
702, 673, 651, 663
701, 723, 634, 677
650, 649, 665, 693
626, 637, 692, 664
661, 635, 681, 602
634, 642, 629, 653
613, 588, 599, 613
605, 603, 614, 583
553, 603, 568, 619
576, 562, 583, 566
568, 571, 614, 553
590, 557, 580, 555
526, 519, 550, 536
520, 567, 537, 544
537, 519, 527, 518
524, 535, 538, 548
549, 508, 533, 486
501, 530, 517, 509
472, 494, 502, 475
448, 476, 499, 471
502, 495, 438, 492
453, 431, 477, 450
440, 431, 492, 480
474, 415, 444, 412
426, 436, 433, 465
427, 469, 484, 454
471, 534, 532, 423
440, 420, 391, 411
445, 364, 406, 378
413, 411, 437, 423
396, 421, 419, 390
396, 402, 378, 371
384, 348, 371, 388
365, 395, 388, 366
410, 362, 357, 383
334, 349, 364, 379
374, 342, 358, 380
368, 389, 377, 358
365, 360, 356, 362
372, 330, 357, 375
334, 332, 319, 337
329, 315, 325, 308
339, 331, 336, 323
302, 321, 354, 316
329, 336, 311, 322
316, 323, 338, 305
294, 308, 286, 327
298, 297, 332, 289
303, 289, 287, 299
331, 314, 300, 303
287, 277, 291, 304
398, 403, 307, 314
262, 264, 304, 273
288, 268, 291, 295
277, 299, 300, 267
260, 261, 286, 261
252, 284, 267, 271
257, 257, 269, 300
273, 253, 282, 258
244, 245, 276, 255
244, 237, 240, 253
286, 259, 266, 258
291, 306, 288, 294
298, 303, 284, 274
268, 262, 279, 292
262, 267, 323, 321
402, 457, 545, 709
17217, 16782, 7927, 5352
552, 505, 436, 406
293, 306, 311, 324
268, 250, 272, 262
272, 244, 259, 245
246, 252, 271, 263
254, 232, 258, 232
221, 237, 220, 228
202, 230, 227, 232
213, 207, 201, 224
241, 241, 213, 232
219, 222, 232, 234
236, 242, 209, 233
219, 224, 211, 217
215, 223, 181, 214
206, 213, 232, 208
205, 206, 203, 196
212, 189, 202, 218
186, 176, 193, 189
214, 202, 168, 168
205, 195, 203, 221
213, 202, 187, 203
209, 180, 198, 177
196, 171, 209, 180
181, 202, 207, 163
209, 181, 180, 192
206, 194, 184, 171
194, 203, 196, 192
179, 161, 175, 196
162, 164, 173, 178
161, 189, 175, 180
166, 170, 191, 143
163, 174, 188, 156
183, 161, 152, 200
187, 167, 151, 175
177, 171, 183, 172
155, 168, 164, 171
172, 168, 170, 174
180, 178, 154, 165
166, 165, 170, 142
158, 190, 161, 166
178, 146, 162, 164
217, 212, 265, 382
582, 715, 651, 398
152, 160, 162, 181
149, 154, 168, 168
155, 147, 129, 144
154, 169, 184, 161
194, 166, 170, 168
141, 156, 180, 170
156, 166, 161, 155
157, 162, 144, 147
159, 155, 168, 164
155, 161, 141, 153
176, 163, 162, 134
158, 157, 144, 166
143, 148, 123, 147
158, 151, 148, 143
160, 142, 144, 145
164, 147, 156, 139
152, 164, 117, 158
147, 130, 155, 146
132, 147, 155, 128
134, 137, 155, 135
160, 135, 161, 152
150, 151, 130, 146
141, 143, 145, 141
149, 145, 131, 161
150, 141, 147, 138
149, 147, 134, 155
142, 165, 149, 146
144, 152, 164, 125
137, 169, 128, 155
155, 137, 147, 159
142, 137, 145, 172
144, 149, 154, 181
163, 154, 126, 135
172, 151, 141, 176
153, 171, 137, 139
143, 155, 138, 150
166, 155, 157, 158
132, 137, 151, 172
155, 158, 149, 161
171, 162, 151, 151
150, 142, 141, 150
139, 134, 145, 149
146, 172, 168, 179
238, 179, 161, 166
148, 134, 178, 164
154, 159, 152
*END

*EOF